EXSEQ,USUBJID,EXSTDTC,EXENDTC,EXDOSE,EXDOSU
EX-001-01,SUBJ-001,2024-01-02,2024-01-10,10,mg
EX-001-02,SUBJ-001,2024-01-11,2024-02-01,10,mg
EX-002-01,SUBJ-002,2024-01-03,2024-01-20,10,mg
EX-004-01,SUBJ-004,2024-01-04,2024-01-04,10,mg
EX-005-01,SUBJ-005,2024-01-05,2024-03-01,10,mg
